IESNA:LM-63-2002
[TEST] 
[TESTLAB] EVERFINE
[TESTDATE] 2016-07-21
[ISSUEDATE] 2016-07-21 16:29:08
[NEARFIELD] 
[LAMPPOSITION] 0,0
[OTHER] EVERFINE GO-R5000_V2 SYSTEM
[MANUFAC] EATON CROUSE-HINDS
[LUMINAIRE]  HLL-4-5L
[LAMP] HLL 60W 5L retest
[OTHER] 
[OTHER] Gamma(deg)    Fz(lm)      Ft(lm)     %Lum    %Lamp
[OTHER]   0- 10       201.16      201.16     3.56     3.56
[OTHER]  10- 20       598.85      800.01    14.17    14.17
[OTHER]  20- 30       970.54     1770.55    31.36    31.36
[OTHER]  30- 40      1205.32     2975.86    52.70    52.70
[OTHER]  40- 50      1082.41     4058.27    71.87    71.87
[OTHER]  50- 60       752.63     4810.91    85.20    85.20
[OTHER]  60- 70       396.91     5207.82    92.23    92.23
[OTHER]  70- 80       215.19     5423.01    96.04    96.04
[OTHER]  80- 90       112.68     5535.70    98.04    98.04
[OTHER]  90-100        65.36     5601.06    99.20    99.20
[OTHER] 100-110        23.91     5624.97    99.62    99.62
[OTHER] 110-120        11.85     5636.81    99.83    99.83
[OTHER] 120-130         6.20     5643.02    99.94    99.94
[OTHER] 130-140         1.71     5644.72    99.97    99.97
[OTHER] 140-150         0.63     5645.36    99.98    99.98
[OTHER] 150-160         0.54     5645.90    99.99    99.99
[OTHER] 160-170         0.34     5646.24   100.00   100.00
[OTHER] 170-180         0.12     5646.36   100.00   100.00
[OTHER] 
TILT=NONE
1 5646.4 1 181 17 1 2 0.000 0.000 0.000
1.000 1 60
0.0    1.0    2.0    3.0    4.0    5.0    6.0    7.0    8.0    9.0    
 10.0   11.0   12.0   13.0   14.0   15.0   16.0   17.0   18.0   19.0   
 20.0   21.0   22.0   23.0   24.0   25.0   26.0   27.0   28.0   29.0   
 30.0   31.0   32.0   33.0   34.0   35.0   36.0   37.0   38.0   39.0   
 40.0   41.0   42.0   43.0   44.0   45.0   46.0   47.0   48.0   49.0   
 50.0   51.0   52.0   53.0   54.0   55.0   56.0   57.0   58.0   59.0   
 60.0   61.0   62.0   63.0   64.0   65.0   66.0   67.0   68.0   69.0   
 70.0   71.0   72.0   73.0   74.0   75.0   76.0   77.0   78.0   79.0   
 80.0   81.0   82.0   83.0   84.0   85.0   86.0   87.0   88.0   89.0   
 90.0   91.0   92.0   93.0   94.0   95.0   96.0   97.0   98.0   99.0   
 100.0  101.0  102.0  103.0  104.0  105.0  106.0  107.0  108.0  109.0  
 110.0  111.0  112.0  113.0  114.0  115.0  116.0  117.0  118.0  119.0  
 120.0  121.0  122.0  123.0  124.0  125.0  126.0  127.0  128.0  129.0  
 130.0  131.0  132.0  133.0  134.0  135.0  136.0  137.0  138.0  139.0  
 140.0  141.0  142.0  143.0  144.0  145.0  146.0  147.0  148.0  149.0  
 150.0  151.0  152.0  153.0  154.0  155.0  156.0  157.0  158.0  159.0  
 160.0  161.0  162.0  163.0  164.0  165.0  166.0  167.0  168.0  169.0  
 170.0  171.0  172.0  173.0  174.0  175.0  176.0  177.0  178.0  179.0  
 180.0  
0.0    22.5   45.0   67.5   90.0   112.5  135.0  157.5  180.0  202.5  
 225.0  247.5  270.0  292.5  315.0  337.5  360.0  
2087.50  2083.38  2103.60  2121.78  2113.92  2095.40  2091.01  2102.15  2109.34  2106.39  
 2103.67  2108.99  2127.24  2152.32  2188.69  2224.71  2256.64  2286.45  2294.43  2271.00  
 2233.18  2213.65  2196.69  2194.87  2200.21  2216.78  2238.48  2273.44  2301.29  2311.47  
 2279.62  2252.53  2184.60  2131.65  2083.95  2008.88  1968.49  1893.56  1820.36  1765.62  
 1656.61  1593.45  1502.77  1384.98  1335.87  1226.09  1176.52  1123.08  1060.41  1038.11  
 980.98   944.68   909.35   835.06   803.97   733.27   670.77   632.70   557.94   524.11   
 481.33   438.38   421.80   384.63   367.16   348.51   323.17   314.43   295.95   283.62   
 271.32   259.01   253.13   240.77   230.44   224.40   210.93   206.43   198.82   188.94   
 184.00   168.33   160.79   150.98   139.90   135.09   123.12   116.82   109.97   91.64    
 87.62    82.78    80.76    80.54    79.96    80.45    80.51    80.64    80.99    80.32    
 80.13    79.13    76.83    75.85    72.41    59.62    42.28    33.91    25.55    17.20    
 8.84     0.49     0.46     0.50     9.10     17.98    26.86    32.42    31.53    29.41    
 26.55    25.34    23.24    21.17    19.70    16.85    15.17    13.55    11.90    11.09    
 9.92     9.10     8.30     7.27     6.59     5.72     4.98     4.40     3.65     3.09     
 2.49     1.89     1.45     1.10     1.10     1.12     1.15     1.18     1.20     1.23     
 1.25     1.26     1.28     1.30     1.32     1.34     1.36     1.37     1.39     1.40     
 1.41     1.41     1.40     1.38     1.35     1.31     1.25     1.22     1.21     1.20     
 1.20     1.20     1.20     1.21     1.20     1.21     1.22     1.24     1.25     1.27     
 1.29     
2087.50  2083.03  2099.48  2119.16  2121.25  2104.35  2090.85  2093.10  2102.17  2105.44  
 2100.57  2097.81  2103.27  2114.84  2136.97  2163.97  2195.01  2228.89  2250.84  2263.89  
 2250.47  2225.37  2192.28  2174.77  2165.43  2161.63  2166.51  2178.12  2196.08  2217.65  
 2242.55  2247.26  2224.09  2188.20  2145.94  2078.52  2042.84  1978.31  1922.27  1876.01  
 1788.33  1735.85  1654.05  1551.14  1496.12  1363.85  1291.74  1202.42  1104.15  1069.92  
 990.46   952.43   912.21   852.89   828.66   766.70   719.89   681.42   609.11   573.82   
 521.52   473.57   450.65   405.52   384.37   360.27   332.91   322.48   298.40   291.14   
 274.94   258.44   251.87   236.80   227.02   219.78   205.93   200.45   190.96   182.74   
 177.20   163.00   155.28   144.78   133.79   128.79   117.77   112.06   104.41   90.81    
 86.34    81.21    79.91    79.83    79.42    79.92    79.85    79.77    79.78    78.48    
 77.74    75.79    72.76    71.14    49.07    30.65    22.88    15.40    7.93     0.45     
 0.40     0.43     9.24     18.11    26.97    32.50    32.20    29.69    28.45    27.57    
 26.16    24.58    21.33    18.64    16.17    13.27    11.82    10.55    9.44     8.78     
 7.69     6.97     6.20     5.24     4.70     3.95     3.35     2.81     2.26     1.71     
 1.21     1.01     1.02     1.05     1.07     1.10     1.13     1.16     1.18     1.21     
 1.24     1.27     1.30     1.32     1.34     1.36     1.37     1.38     1.39     1.39     
 1.38     1.36     1.33     1.30     1.28     1.25     1.24     1.24     1.24     1.24     
 1.25     1.27     1.28     1.28     1.29     1.29     1.29     1.30     1.31     1.32     
 1.29     
2087.50  2082.49  2088.71  2102.40  2117.72  2121.93  2111.98  2094.34  2082.74  2079.48  
 2084.39  2088.94  2086.97  2080.67  2072.23  2069.83  2074.77  2083.79  2093.28  2109.74  
 2129.34  2147.49  2170.11  2181.75  2186.76  2178.10  2162.24  2127.87  2107.03  2083.35  
 2062.60  2052.27  2039.80  2034.32  2030.79  2030.30  2026.96  2018.49  1998.96  1966.86  
 1908.35  1862.34  1786.15  1722.48  1663.94  1579.75  1529.39  1445.14  1371.42  1309.07  
 1213.29  1156.70  1069.00  984.18   925.13   837.52   787.64   732.58   678.24   645.62   
 600.07   570.08   537.32   494.07   467.27   426.77   394.59   366.89   332.75   312.91   
 288.21   270.34   252.61   234.87   224.75   211.67   198.43   189.16   177.23   168.15   
 157.88   145.64   136.91   125.96   117.73   110.14   102.94   97.82    91.33    85.60    
 80.15    77.89    77.47    76.73    76.18    75.53    73.86    72.20    69.31    65.76    
 49.30    23.94    17.90    12.18    6.47     0.75     7.93     15.54    23.14    27.79    
 26.51    25.08    23.52    22.62    21.26    19.51    16.82    14.19    12.14    10.55    
 9.46     8.50     7.49     6.64     5.76     4.94     4.26     3.53     2.93     2.33     
 1.73     1.28     0.81     0.68     0.71     0.73     0.76     0.79     0.82     0.85     
 0.88     0.90     0.93     0.95     0.97     0.99     1.01     1.03     1.05     1.08     
 1.12     1.15     1.17     1.20     1.21     1.22     1.23     1.23     1.23     1.23     
 1.22     1.21     1.21     1.22     1.23     1.23     1.24     1.25     1.26     1.26     
 1.27     1.27     1.27     1.26     1.25     1.25     1.24     1.23     1.23     1.22     
 1.29     
2087.50  2083.22  2081.17  2081.50  2084.43  2091.14  2097.87  2102.86  2105.36  2105.36  
 2101.29  2091.49  2077.88  2066.88  2055.04  2049.57  2045.57  2041.95  2040.28  2039.30  
 2036.43  2030.51  2024.09  2015.96  2004.42  1990.86  1978.42  1966.74  1956.34  1947.12  
 1935.16  1922.81  1909.61  1893.22  1880.88  1866.53  1850.29  1832.10  1808.00  1782.13  
 1749.51  1714.40  1669.76  1625.54  1574.86  1524.03  1476.35  1424.72  1380.60  1334.16  
 1288.68  1243.67  1196.81  1149.31  1095.58  1036.91  979.26   913.80   847.11   784.07   
 717.08   655.78   595.82   539.33   490.53   443.37   403.80   368.41   338.25   312.90   
 288.67   268.16   247.72   227.29   209.39   193.06   177.78   164.25   151.86   140.98   
 130.79   121.06   111.60   101.87   92.74    84.57    77.00    71.33    66.41    62.77    
 59.67    56.87    53.91    50.68    45.20    37.71    32.42    28.96    25.54    22.12    
 19.67    17.70    16.05    14.80    13.49    12.16    10.86    9.60     8.43     7.33     
 6.23     5.11     4.11     3.23     2.26     1.28     0.74     0.41     0.51     0.55     
 0.43     0.40     0.41     0.43     0.43     0.44     0.46     0.48     0.50     0.51     
 0.52     0.54     0.56     0.58     0.61     0.63     0.65     0.67     0.69     0.71     
 0.72     0.74     0.75     0.77     0.79     0.80     0.82     0.85     0.89     0.92     
 0.95     0.99     1.02     1.06     1.09     1.12     1.15     1.17     1.19     1.21     
 1.23     1.25     1.26     1.27     1.27     1.27     1.27     1.27     1.26     1.25     
 1.24     1.25     1.25     1.25     1.24     1.24     1.24     1.25     1.26     1.27     
 1.29     
2087.50  2089.25  2089.06  2087.77  2087.18  2085.69  2080.78  2075.20  2069.34  2065.26  
 2060.75  2057.06  2055.09  2052.09  2047.51  2043.07  2039.32  2034.95  2030.77  2024.87  
 2019.71  2013.25  2003.22  1993.96  1985.18  1975.52  1963.51  1947.35  1931.48  1914.81  
 1897.05  1875.68  1852.94  1828.59  1802.72  1776.91  1748.26  1716.92  1685.00  1650.22  
 1612.56  1574.85  1539.15  1503.55  1466.66  1426.86  1385.23  1340.85  1296.32  1252.20  
 1205.33  1155.25  1104.65  1051.39  996.23   938.89   881.86   823.60   766.68   710.00   
 655.46   604.51   553.68   506.19   461.21   420.87   383.98   350.76   320.53   293.17   
 268.10   245.26   224.08   203.47   184.15   165.90   148.77   132.52   117.70   103.98   
 91.18    79.84    70.37    60.90    51.45    43.85    38.44    35.40    33.50    32.61    
 31.94    31.05    29.80    28.19    26.45    24.62    22.78    20.98    19.22    17.51    
 15.90    14.39    12.98    11.67    10.51    9.47     8.55     7.74     7.01     6.38     
 5.75     5.13     4.62     4.17     3.77     3.40     3.04     2.35     1.65     1.11     
 0.64     0.53     0.85     0.81     0.69     0.57     0.53     0.59     0.58     0.54     
 0.54     0.56     0.58     0.60     0.62     0.63     0.65     0.68     0.70     0.72     
 0.75     0.77     0.79     0.82     0.84     0.87     0.89     0.92     0.94     0.96     
 0.98     1.00     1.02     1.04     1.07     1.09     1.11     1.13     1.15     1.16     
 1.18     1.19     1.20     1.20     1.21     1.21     1.21     1.21     1.21     1.21     
 1.20     1.20     1.20     1.20     1.21     1.21     1.19     1.20     1.23     1.25     
 1.29     
2087.50  2094.54  2102.92  2111.70  2119.73  2127.08  2129.60  2126.11  2119.01  2109.11  
 2097.56  2087.85  2081.40  2081.66  2087.36  2098.40  2110.92  2123.80  2131.03  2129.26  
 2117.40  2097.90  2073.01  2049.94  2027.46  2006.63  1988.58  1971.69  1956.69  1943.14  
 1930.79  1917.96  1904.04  1886.86  1869.63  1851.38  1827.04  1799.81  1768.67  1732.13  
 1690.40  1643.19  1597.48  1545.63  1496.58  1452.04  1405.26  1361.49  1316.63  1274.86  
 1233.05  1189.52  1144.62  1092.65  1035.92  976.62   913.50   849.77   785.38   721.61   
 663.58   608.66   553.97   507.22   463.35   425.86   391.81   361.00   334.97   309.75   
 287.18   266.24   245.91   227.57   209.54   193.79   179.10   165.43   153.72   142.70   
 132.66   122.87   112.51   102.56   93.23    85.18    78.33    72.56    68.65    64.73    
 60.83    57.76    54.62    51.47    47.19    38.70    33.29    28.12    25.13    22.37    
 19.86    18.01    16.34    14.93    13.72    12.44    11.07    9.84     8.59     7.48     
 6.38     5.27     4.16     3.21     2.09     1.38     0.87     0.60     0.75     0.82     
 0.68     0.61     0.62     0.64     0.65     0.66     0.67     0.69     0.71     0.72     
 0.74     0.75     0.77     0.79     0.80     0.82     0.83     0.84     0.86     0.87     
 0.89     0.90     0.92     0.94     0.95     0.98     0.99     1.00     1.01     1.02     
 1.04     1.05     1.08     1.11     1.13     1.14     1.16     1.17     1.18     1.19     
 1.20     1.20     1.21     1.22     1.23     1.23     1.23     1.22     1.22     1.21     
 1.21     1.20     1.20     1.20     1.21     1.21     1.19     1.20     1.22     1.24     
 1.29     
2087.50  2101.11  2121.06  2136.21  2138.21  2125.75  2110.13  2104.49  2117.83  2147.19  
 2169.65  2172.36  2150.57  2123.73  2101.00  2087.63  2082.04  2082.41  2087.04  2097.50  
 2110.20  2124.26  2137.92  2145.51  2141.77  2127.73  2111.83  2094.45  2078.68  2063.61  
 2049.76  2040.02  2030.69  2027.02  2024.86  2024.28  2015.44  1984.16  1929.23  1869.39  
 1799.94  1733.58  1672.45  1596.84  1532.80  1460.22  1386.96  1319.72  1234.40  1166.97  
 1091.47  1014.20  956.08   889.86   839.13   789.73   740.63   701.44   657.15   620.37   
 583.59   546.84   511.09   472.33   433.27   402.62   370.24   343.44   320.76   296.40   
 279.43   260.94   245.48   233.95   221.08   209.93   197.66   185.74   177.04   165.42   
 156.07   145.69   133.84   125.67   115.76   108.37   102.11   95.03    90.29    83.93    
 80.12    78.86    77.54    76.78    75.75    74.21    72.83    70.06    61.56    53.05    
 44.41    30.51    16.61    2.79     1.66     1.51     1.41     13.11    23.16    26.27    
 24.02    22.12    20.23    18.42    17.02    15.55    14.24    13.02    11.71    10.62    
 9.52     8.47     7.59     6.71     5.83     4.95     4.19     3.57     2.90     2.30     
 1.76     1.26     1.02     1.03     1.01     1.01     1.02     1.03     1.04     1.04     
 1.05     1.05     1.05     1.06     1.07     1.09     1.11     1.13     1.15     1.17     
 1.18     1.19     1.20     1.20     1.20     1.21     1.21     1.21     1.21     1.22     
 1.23     1.24     1.25     1.26     1.26     1.26     1.26     1.26     1.26     1.25     
 1.25     1.25     1.25     1.26     1.26     1.25     1.24     1.24     1.26     1.28     
 1.29     
2087.50  2106.19  2131.79  2139.27  2124.80  2109.16  2119.04  2156.95  2181.63  2171.18  
 2141.61  2120.85  2113.56  2119.96  2132.24  2152.15  2175.84  2202.17  2220.49  2220.01  
 2205.66  2191.74  2180.17  2174.07  2169.25  2167.46  2172.10  2184.91  2202.95  2224.67  
 2221.53  2183.62  2125.04  2068.53  2015.47  1958.12  1906.62  1846.26  1782.06  1715.82  
 1637.96  1561.28  1481.43  1393.46  1314.90  1236.97  1165.96  1109.57  1049.31  1003.22  
 954.18   907.22   866.91   815.42   771.65   719.52   666.21   619.37   572.53   525.75   
 485.56   447.22   418.66   388.41   365.05   344.45   323.52   306.72   291.25   278.45   
 268.62   254.89   243.97   233.25   221.55   213.29   202.48   193.74   186.49   175.65   
 166.60   155.92   145.88   137.37   127.46   120.47   112.94   105.40   98.59    89.84    
 84.72    81.30    79.71    79.53    79.17    79.10    79.15    78.62    78.30    77.12    
 75.29    73.51    62.96    52.40    41.84    27.95    14.07    0.55     0.55     0.58     
 3.21     5.83     8.56     18.13    25.73    28.82    26.76    24.65    22.47    20.75    
 18.81    17.23    15.90    14.44    13.30    12.16    11.10    10.20    9.15     8.31     
 7.45     6.62     5.79     4.97     4.30     3.63     2.95     2.39     1.80     1.33     
 1.09     1.08     1.09     1.09     1.10     1.11     1.12     1.12     1.12     1.12     
 1.12     1.13     1.14     1.15     1.16     1.18     1.19     1.20     1.20     1.20     
 1.19     1.19     1.18     1.19     1.19     1.20     1.20     1.20     1.21     1.22     
 1.23     1.24     1.25     1.27     1.28     1.29     1.28     1.28     1.30     1.33     
 1.29     
2087.50  2107.40  2132.36  2133.89  2115.00  2109.90  2139.01  2176.43  2180.52  2153.34  
 2129.52  2123.78  2130.87  2145.22  2168.65  2196.55  2227.67  2244.72  2241.15  2228.89  
 2219.53  2215.78  2215.79  2218.35  2226.32  2242.46  2268.22  2301.23  2306.55  2265.09  
 2200.33  2144.44  2082.84  2027.58  1973.72  1908.93  1846.86  1769.16  1687.19  1609.93  
 1521.60  1439.89  1363.98  1286.81  1227.15  1169.91  1119.65  1078.38  1027.84  986.19   
 939.19   887.18   840.07   779.27   726.08   669.43   618.87   568.30   517.86   481.38   
 447.73   416.96   392.88   367.91   347.83   330.03   311.85   299.51   288.57   277.22   
 267.57   255.36   246.18   236.52   225.83   218.19   208.19   200.65   192.59   183.15   
 176.12   165.14   154.32   145.80   135.17   127.47   119.10   111.35   104.35   91.92    
 85.47    82.28    80.10    79.86    79.49    79.61    79.85    79.75    79.89    79.41    
 78.40    77.30    74.65    64.31    53.97    43.50    27.36    18.42    9.48     0.56     
 0.58     0.71     3.81     6.90     9.99     19.37    25.70    28.26    26.04    24.26    
 22.17    20.49    18.91    17.20    15.96    14.60    13.40    12.41    11.28    10.38    
 9.44     8.51     7.72     6.90     6.09     5.27     4.53     3.88     3.23     2.62     
 2.06     1.53     1.14     1.10     1.10     1.09     1.10     1.10     1.11     1.11     
 1.11     1.10     1.10     1.11     1.12     1.12     1.13     1.13     1.15     1.17     
 1.17     1.16     1.15     1.14     1.13     1.11     1.11     1.11     1.11     1.11     
 1.13     1.15     1.18     1.21     1.23     1.25     1.26     1.26     1.28     1.30     
 1.29     
2087.50  2106.54  2128.62  2132.48  2116.14  2103.30  2117.07  2155.08  2176.58  2164.52  
 2136.20  2117.09  2114.60  2120.60  2130.35  2150.85  2178.12  2206.30  2223.50  2222.91  
 2209.88  2196.48  2188.31  2184.14  2182.52  2185.10  2193.03  2209.88  2234.73  2267.29  
 2258.64  2205.47  2136.43  2079.85  2027.05  1970.22  1918.80  1857.18  1789.56  1722.73  
 1642.30  1564.42  1489.58  1397.89  1324.19  1245.60  1174.06  1119.66  1054.01  1007.15  
 954.54   899.40   852.99   795.13   751.71   701.42   649.48   601.72   554.04   513.55   
 474.77   438.13   410.81   381.03   356.39   337.41   316.75   300.85   285.76   272.95   
 264.05   251.17   240.97   231.86   220.82   213.25   202.88   194.35   186.85   176.47   
 170.16   159.15   147.99   140.24   130.14   122.33   114.39   106.38   101.29   90.18    
 82.74    80.06    78.43    78.29    78.07    78.05    78.22    77.67    77.32    76.18    
 74.12    72.39    63.06    53.73    33.92    22.68    11.44    0.49     0.50     0.53     
 3.58     6.63     9.75     19.19    25.64    27.26    25.28    23.27    21.20    19.63    
 17.87    16.40    15.13    13.72    12.67    11.58    10.60    9.74     8.74     7.94     
 7.11     6.32     5.53     4.74     4.09     3.46     2.83     2.28     1.75     1.29     
 1.02     1.01     1.02     1.02     1.03     1.04     1.05     1.06     1.06     1.05     
 1.05     1.04     1.04     1.04     1.05     1.05     1.05     1.05     1.05     1.06     
 1.06     1.04     1.02     0.99     0.96     0.93     0.91     0.91     0.91     0.92     
 0.93     0.95     0.98     1.00     1.03     1.07     1.12     1.16     1.26     1.30     
 1.29     
2087.50  2101.28  2119.29  2129.83  2127.65  2113.71  2098.58  2095.14  2109.35  2134.92  
 2152.65  2148.20  2126.62  2101.57  2084.00  2077.19  2074.92  2075.80  2080.25  2092.50  
 2109.11  2128.72  2146.75  2155.77  2153.83  2139.02  2122.64  2110.31  2102.56  2095.28  
 2086.84  2078.57  2070.92  2066.69  2067.40  2072.91  2068.52  2025.56  1947.08  1876.94  
 1801.44  1731.07  1672.31  1598.21  1531.74  1457.93  1376.98  1310.49  1225.53  1158.77  
 1090.08  1014.27  955.71   889.37   838.94   793.21   743.36   702.88   655.24   610.84   
 566.43   522.22   485.61   448.77   412.10   384.53   354.22   329.25   308.15   284.95   
 268.90   251.68   234.84   223.29   211.16   200.64   189.76   178.71   170.39   160.08   
 150.75   140.79   129.22   120.94   111.58   104.51   98.45    91.63    86.88    82.19    
 76.79    75.21    74.18    73.53    72.72    71.20    69.73    64.41    59.10    53.08    
 28.39    19.71    11.03    2.42     3.96     5.50     7.08     17.23    23.47    23.58    
 21.55    19.90    18.30    16.82    15.60    14.23    12.99    11.90    10.71    9.73     
 8.75     7.80     6.95     6.09     5.24     4.49     3.78     3.16     2.49     1.91     
 1.40     0.94     0.83     0.82     0.81     0.80     0.81     0.82     0.83     0.84     
 0.84     0.84     0.85     0.87     0.89     0.91     0.93     0.94     0.95     0.96     
 0.96     0.97     0.98     0.98     0.98     0.99     0.99     0.99     0.98     0.98     
 0.97     0.96     0.95     0.94     0.93     0.92     0.92     0.92     0.93     0.94     
 0.96     0.99     1.02     1.05     1.09     1.13     1.17     1.18     1.21     1.24     
 1.29     
2087.50  2093.33  2102.95  2111.94  2120.00  2124.82  2125.03  2117.62  2105.90  2091.05  
 2076.59  2064.86  2056.77  2056.32  2064.34  2075.65  2085.96  2093.65  2094.93  2087.98  
 2074.24  2055.89  2033.42  2012.03  1992.71  1976.79  1964.21  1952.95  1940.22  1926.41  
 1911.21  1895.21  1882.43  1870.25  1856.97  1842.91  1827.55  1808.78  1787.56  1761.03  
 1729.62  1691.73  1651.80  1605.49  1560.43  1516.94  1470.57  1427.95  1382.08  1338.73  
 1295.89  1252.08  1205.69  1142.80  1068.31  992.47   917.12   844.39   776.20   709.06   
 651.19   593.32   535.46   484.53   437.11   397.94   364.42   335.39   311.18   288.60   
 268.24   249.19   230.82   213.79   196.98   181.93   168.66   156.14   145.09   135.04   
 125.88   117.74   108.54   99.03    89.44    81.14    74.21    69.50    64.79    60.14    
 56.87    53.89    50.63    47.30    39.30    33.56    28.82    22.86    20.20    19.89    
 18.66    16.92    15.20    13.67    12.21    10.83    9.62     8.45     7.30     6.15     
 5.00     4.01     3.15     2.46     2.09     1.85     1.65     1.47     1.30     1.16     
 1.03     0.91     0.79     0.68     0.60     0.54     0.52     0.52     0.54     0.55     
 0.56     0.57     0.60     0.63     0.64     0.65     0.66     0.68     0.70     0.71     
 0.72     0.73     0.75     0.76     0.78     0.80     0.82     0.84     0.86     0.89     
 0.91     0.94     0.95     0.97     0.98     0.99     0.99     1.00     0.99     0.99     
 0.99     0.99     0.99     0.99     1.00     1.00     1.01     1.02     1.02     1.02     
 1.03     1.05     1.07     1.09     1.11     1.12     1.13     1.13     1.17     1.20     
 1.29     
2087.50  2086.33  2084.41  2083.02  2079.48  2074.41  2068.04  2060.66  2053.18  2045.12  
 2037.40  2029.63  2023.65  2017.59  2010.48  2001.84  1993.92  1986.28  1977.91  1970.15  
 1961.38  1952.34  1942.79  1932.39  1918.90  1905.90  1891.12  1873.48  1854.34  1832.52  
 1809.76  1789.55  1766.26  1743.18  1716.53  1686.42  1655.17  1622.23  1588.55  1554.34  
 1520.05  1484.25  1448.07  1409.24  1370.45  1332.64  1292.76  1250.30  1207.75  1165.17  
 1121.78  1077.04  1028.65  979.48   929.68   878.65   824.96   771.95   719.43   666.76   
 615.75   566.28   519.68   474.20   432.45   394.20   359.64   329.07   300.55   277.31   
 254.12   230.93   210.86   191.60   173.68   156.58   140.69   125.46   111.61   98.86    
 87.15    76.38    66.50    57.40    49.07    41.25    35.65    32.46    30.81    30.22    
 29.44    28.06    26.68    25.30    23.52    21.64    19.85    18.07    16.40    14.81    
 13.34    11.98    10.73    9.62     8.61     7.71     6.91     6.20     5.57     5.02     
 4.52     4.07     3.65     3.28     2.95     2.62     2.30     2.06     1.84     1.65     
 1.48     1.34     1.21     1.09     0.97     0.84     0.68     0.56     0.47     0.44     
 0.44     0.46     0.48     0.50     0.52     0.54     0.56     0.58     0.62     0.66     
 0.71     0.75     0.78     0.82     0.84     0.87     0.89     0.92     0.94     0.96     
 0.99     1.02     1.06     1.10     1.15     1.19     1.22     1.25     1.27     1.28     
 1.28     1.28     1.27     1.27     1.26     1.27     1.28     1.28     1.29     1.29     
 1.29     1.29     1.29     1.29     1.29     1.28     1.28     1.27     1.26     1.27     
 1.29     
2087.50  2082.98  2081.44  2082.46  2087.52  2091.48  2094.42  2095.02  2092.10  2085.75  
 2076.01  2063.58  2050.64  2040.88  2034.07  2030.88  2028.54  2027.95  2027.55  2024.26  
 2016.88  2006.33  1992.24  1981.38  1968.60  1956.12  1945.21  1934.01  1924.91  1919.10  
 1913.85  1906.50  1904.46  1896.64  1891.31  1878.25  1859.59  1839.21  1815.78  1785.42  
 1747.19  1701.24  1644.62  1589.65  1529.85  1476.83  1431.02  1385.32  1346.30  1308.66  
 1272.93  1238.56  1203.45  1161.79  1104.87  1035.76  967.41   892.21   822.51   755.21   
 688.83   628.59   570.20   517.14   470.52   427.78   390.98   358.74   330.47   306.08   
 281.80   262.15   242.59   223.41   205.94   189.63   174.64   161.03   148.17   137.54   
 128.15   118.89   109.35   99.29    89.74    81.54    74.23    68.63    63.95    60.58    
 57.49    54.60    51.65    48.59    43.93    36.09    31.52    28.43    25.38    22.33    
 19.87    17.84    16.04    14.45    12.91    11.49    10.19    9.02     7.84     6.67     
 5.59     4.51     3.58     3.03     2.48     1.93     1.70     1.50     1.32     1.17     
 1.03     0.90     0.76     0.64     0.54     0.49     0.48     0.49     0.51     0.53     
 0.54     0.56     0.58     0.61     0.63     0.65     0.67     0.70     0.72     0.74     
 0.76     0.79     0.82     0.85     0.87     0.89     0.92     0.95     0.98     1.01     
 1.05     1.08     1.11     1.14     1.18     1.21     1.24     1.26     1.29     1.30     
 1.32     1.32     1.33     1.33     1.32     1.33     1.33     1.33     1.33     1.33     
 1.33     1.33     1.34     1.33     1.33     1.32     1.33     1.32     1.30     1.31     
 1.29     
2087.50  2083.25  2090.85  2104.23  2117.41  2115.00  2099.54  2080.52  2071.64  2071.25  
 2074.78  2075.56  2070.25  2063.32  2055.27  2053.90  2057.59  2069.75  2082.76  2103.54  
 2127.04  2144.65  2165.02  2174.26  2176.85  2160.06  2137.47  2095.10  2070.76  2048.53  
 2028.22  2019.14  2011.17  2009.60  2014.32  2026.46  2031.97  2028.71  1999.77  1947.94  
 1869.04  1817.90  1736.97  1670.84  1611.92  1525.98  1471.85  1388.32  1315.69  1257.99  
 1167.47  1114.32  1033.01  952.73   904.57   828.26   786.03   737.55   685.93   655.43   
 606.00   571.39   532.11   485.85   457.84   415.37   385.67   358.84   326.32   307.21   
 280.84   264.72   248.80   230.93   221.25   208.07   195.69   185.87   173.70   164.99   
 154.34   143.12   133.34   122.80   115.10   107.06   100.27   95.10    89.19    84.27    
 78.95    76.72    76.21    75.36    74.58    73.52    71.72    69.84    66.99    63.74    
 49.78    26.03    18.15    10.60    3.04     7.30     11.82    16.34    20.86    26.02    
 23.96    21.69    19.72    18.19    16.65    15.33    13.99    12.63    11.47    10.29    
 9.24     8.30     7.30     6.44     5.56     4.74     4.05     3.34     2.74     2.15     
 1.56     1.12     0.73     0.72     0.75     0.78     0.82     0.85     0.88     0.91     
 0.94     0.97     1.00     1.02     1.04     1.06     1.08     1.10     1.13     1.16     
 1.19     1.23     1.26     1.29     1.31     1.33     1.34     1.35     1.35     1.36     
 1.36     1.37     1.37     1.38     1.38     1.38     1.38     1.37     1.36     1.36     
 1.34     1.34     1.33     1.32     1.31     1.31     1.33     1.32     1.31     1.30     
 1.29     
2087.50  2083.60  2100.65  2118.27  2116.18  2097.28  2085.81  2092.40  2102.53  2105.37  
 2099.91  2096.35  2099.98  2112.68  2137.29  2166.09  2193.05  2227.43  2249.08  2259.39  
 2239.90  2212.61  2178.28  2159.11  2146.97  2142.03  2146.99  2163.59  2187.93  2214.78  
 2245.32  2249.27  2210.31  2166.38  2117.89  2047.23  2010.90  1946.67  1889.35  1841.70  
 1752.48  1701.44  1621.07  1521.10  1465.57  1336.82  1269.30  1190.09  1099.81  1068.46  
 994.35   957.34   917.68   856.32   832.16   767.64   721.38   679.08   606.88   574.04   
 520.85   474.42   451.04   405.58   385.31   360.55   332.88   322.26   298.00   284.19   
 270.77   257.36   251.08   235.62   226.24   218.24   204.59   199.09   188.58   179.65   
 173.03   158.75   151.87   140.86   131.38   126.15   115.46   110.11   103.53   90.82    
 85.89    80.73    79.59    79.41    79.01    79.45    79.20    79.05    78.84    77.46    
 76.72    74.51    71.81    69.95    49.20    32.16    13.16    6.60     0.41     0.41     
 0.43     0.45     8.58     16.77    24.95    30.60    29.70    26.50    24.59    22.54    
 20.40    19.15    17.09    15.62    14.18    12.41    11.47    10.33    9.31     8.60     
 7.52     6.81     6.00     5.05     4.56     3.80     3.23     2.70     2.17     1.63     
 1.15     1.03     1.06     1.08     1.10     1.13     1.16     1.18     1.19     1.21     
 1.24     1.27     1.30     1.33     1.36     1.39     1.41     1.43     1.45     1.46     
 1.46     1.46     1.46     1.45     1.44     1.42     1.41     1.40     1.39     1.38     
 1.37     1.36     1.35     1.34     1.34     1.33     1.33     1.32     1.32     1.31     
 1.29     
2087.50  2083.38  2103.60  2121.78  2113.92  2095.40  2091.01  2102.15  2109.34  2106.39  
 2103.67  2108.99  2127.24  2152.32  2188.69  2224.71  2256.64  2286.45  2294.43  2271.00  
 2233.18  2213.65  2196.69  2194.87  2200.21  2216.78  2238.48  2273.44  2301.29  2311.47  
 2279.62  2252.53  2184.60  2131.65  2083.95  2008.88  1968.49  1893.56  1820.36  1765.62  
 1656.61  1593.45  1502.77  1384.98  1335.87  1226.09  1176.52  1123.08  1060.41  1038.11  
 980.98   944.68   909.35   835.06   803.97   733.27   670.77   632.70   557.94   524.11   
 481.33   438.38   421.80   384.63   367.16   348.51   323.17   314.43   295.95   283.62   
 271.32   259.01   253.13   240.77   230.44   224.40   210.93   206.43   198.82   188.94   
 184.00   168.33   160.79   150.98   139.90   135.09   123.12   116.82   109.97   91.64    
 87.62    82.78    80.76    80.54    79.96    80.45    80.51    80.64    80.99    80.32    
 80.13    79.13    76.83    75.85    72.41    59.62    42.28    33.91    25.55    17.20    
 8.84     0.49     0.46     0.50     9.10     17.98    26.86    32.42    31.53    29.41    
 26.55    25.34    23.24    21.17    19.70    16.85    15.17    13.55    11.90    11.09    
 9.92     9.10     8.30     7.27     6.59     5.72     4.98     4.40     3.65     3.09     
 2.49     1.89     1.45     1.10     1.10     1.12     1.15     1.18     1.20     1.23     
 1.25     1.26     1.28     1.30     1.32     1.34     1.36     1.37     1.39     1.40     
 1.41     1.41     1.40     1.38     1.35     1.31     1.25     1.22     1.21     1.20     
 1.20     1.20     1.20     1.21     1.20     1.21     1.22     1.24     1.25     1.27     
 1.29     
